onset	duration	trial_type	accuracy	response_time
9.433	2	maint	1	0.72
13.033	2	rest	n/a	n/a
23.617	2	encod	1	0.691
27.117	2	rest	n/a	n/a
37.167	2	maint	1	0.874
40.717	2	rest	n/a	n/a
51.718	2	encod	1	0.786
55.801	2	rest	n/a	n/a
67.051	2	maint	1	0.903
70.802	2	rest	n/a	n/a
80.535	2	encod	1	0.846
84.352	2	rest	n/a	n/a
94.335	2	encod	1	0.507
97.869	2	rest	n/a	n/a
107.853	2	remov	1	0.887
111.953	2	rest	n/a	n/a
122.653	2	remov	1	0.601
126.803	2	rest	n/a	n/a
137.92	2	encod	1	1.006
142.07	2	rest	n/a	n/a
152.787	2	maint	1	0.873
156.67	2	rest	n/a	n/a
166.821	2	maint	0	1.158
171.421	2	rest	n/a	n/a
182.638	2	maint	1	0.669
186.538	2	rest	n/a	n/a
197.705	2	encod	1	0.79
201.238	2	rest	n/a	n/a
211.322	2	encod	1	0.72
214.705	2	rest	n/a	n/a
224.739	2	remov	1	1.422
229.255	2	rest	n/a	n/a
239.656	2	maint	1	0.79
243.789	2	rest	n/a	n/a
254.673	2	remov	1	0.695
258.489	2	rest	n/a	n/a
268.573	2	remov	1	0.725
272.573	2	rest	n/a	n/a
283.623	2	encod	1	0.721
287.84	2	rest	n/a	n/a
299.09	2	remov	1	0.827
303.291	2	rest	n/a	n/a
313.707	2	remov	1	0.743
317.908	2	rest	n/a	n/a
328.458	2	remov	1	0.811
332.058	2	rest	n/a	n/a
342.975	2	maint	0	1.263
347.208	2	rest	n/a	n/a
357.892	2	encod	1	0.647
361.775	2	rest	n/a	n/a
372.276	2	maint	0	1.045
376.009	2	rest	n/a	n/a
386.826	2	maint	1	0.602
390.426	2	rest	n/a	n/a
401.076	2	encod	1	0.718
404.443	2	rest	n/a	n/a
415.193	2	maint	1	1.796
419.777	2	rest	n/a	n/a
430.544	2	encod	1	1.009
434.244	2	rest	n/a	n/a
