onset	duration	trial_type	accuracy	response_time
8.45	2	encod	0	0
13.467	2	rest	n/a	n/a
23.767	2	encod	0	0
28.834	2	rest	n/a	n/a
39.884	2	maint	0	1.064
43.884	2	rest	n/a	n/a
53.835	2	remov	1	1.243
58.385	2	rest	n/a	n/a
69.785	2	remov	0	0
74.869	2	rest	n/a	n/a
85.319	2	encod	0	0
90.069	2	rest	n/a	n/a
100.936	2	encod	1	1.429
105.886	2	rest	n/a	n/a
116.153	2	maint	0	1.192
119.97	2	rest	n/a	n/a
130.686	2	maint	1	1.502
135.503	2	rest	n/a	n/a
145.687	2	maint	1	1.831
150.804	2	rest	n/a	n/a
161.287	2	maint	1	1.61
165.704	2	rest	n/a	n/a
177.154	2	maint	1	1.328
182.054	2	rest	n/a	n/a
192.788	2	remov	1	1.231
197.388	2	rest	n/a	n/a
207.755	2	encod	0	1.092
211.722	2	rest	n/a	n/a
222.639	2	maint	1	1.215
227.139	2	rest	n/a	n/a
237.606	2	encod	0	0
243.006	2	rest	n/a	n/a
253.856	2	maint	1	1.458
258.706	2	rest	n/a	n/a
269.473	2	remov	1	1.05
273.873	2	rest	n/a	n/a
284.39	2	encod	0	0
289.357	2	rest	n/a	n/a
300.774	2	remov	1	1.414
305.724	2	rest	n/a	n/a
316.874	2	maint	0	0
322.258	2	rest	n/a	n/a
332.358	2	encod	0	0
337.308	2	rest	n/a	n/a
346.975	2	remov	1	1.364
351.908	2	rest	n/a	n/a
362.825	2	remov	0	0
367.875	2	rest	n/a	n/a
378.892	2	encod	0	0
384.126	2	rest	n/a	n/a
394.843	2	remov	0	0
399.643	2	rest	n/a	n/a
410.127	2	maint	1	1.779
414.51	2	rest	n/a	n/a
424.727	2	maint	1	1.697
429.26	2	rest	n/a	n/a
440.494	2	remov	1	1.141
444.394	2	rest	n/a	n/a
455.028	2	encod	0	0
459.961	2	rest	n/a	n/a
